Frecuencia (Hz),Ganancia (dB),Fase (°)
Frecuencia (Hz),Ganancia (dB),Fase (°)
10,-20,180
100,-20,180
1000,-20,180
10000,-20.1,181.01
50000,-20.1,176.87
75000,-20.1,175.4
100000,-20,173
400000,-19.12,146.5
200000,-19.82,163.17
300000,-19.4,156.2
500000,-18.98,132.2
600000,-19.2,121
700000,-20.2,98.1
800000,-21.17,85.5
900000,-22.07,74
1000000,-22.97,65.6
1200000,-24.9,53.4
1500000,-26.8,36.8
2000000,-29,20.2
2500000,-30.65,14
3000000,-31.86,9.55
4000000,-33.17,8.8